timestamp,ax,ay,az,gx,gy,gz,label
2020-03-06,17:30:16.992,0.016846, 0.049316, 0.953613,-1.457214, 2.220154, 0.045776,gal
2020-03-06,17:30:17.020,0.021729, 0.053223, 0.958496,-2.784729, 3.776550, -0.473022,gal
2020-03-06,17:30:17.048,0.022461, 0.054932, 0.961914,-1.747131, 2.182007, -0.045776,gal
2020-03-06,17:30:17.075,0.017578, 0.054688, 0.955322,-1.350403, 1.976013, -0.259399,gal
2020-03-06,17:30:17.103,0.020508, 0.049072, 0.960205,-2.365112, 1.502991, -0.335693,gal
2020-03-06,17:30:17.131,0.022949, 0.054443, 0.958984,-1.632690, 2.693176, 0.366211,gal
2020-03-06,17:30:17.163,0.019287, 0.060059, 0.956055,-2.296448, 2.014160, 0.190735,gal
2020-03-06,17:30:17.193,0.027344, 0.052734, 0.963867,-1.579285, 1.770020, -0.053406,gal
2020-03-06,17:30:17.226,0.014893, 0.051758, 0.960693,-1.762390, 1.647949, -0.450134,gal
2020-03-06,17:30:17.259,0.016846, 0.050293, 0.964355,-2.204895, 1.632690, -0.289917,gal
2020-03-06,17:30:17.291,0.016357, 0.055420, 0.958496,-1.930237, 1.922607, -0.450134,gal
2020-03-06,17:30:17.322,0.019531, 0.051025, 0.958008,-2.525330, 1.617432, -0.450134,gal
2020-03-06,17:30:17.351,0.023438, 0.050049, 0.955566,-2.014160, 2.388000, -0.167847,gal
2020-03-06,17:30:17.380,0.018311, 0.056152, 0.961426,-2.090454, 1.846313, -0.198364,gal
2020-03-06,17:30:17.411,0.019775, 0.052246, 0.939697,-1.869202, 0.007629, -0.137329,gal
2020-03-06,17:30:17.440,0.021484, 0.049805, 0.949219,-0.045776, 2.098083, -0.167847,gal
2020-03-06,17:30:17.469,0.019043, 0.050049, 0.958252,-2.372742, 1.708984, -0.335693,gal
2020-03-06,17:30:17.502,0.025391, 0.057861, 0.960205,-1.945496, 2.273560, 1.777649,gal
2020-03-06,17:30:17.530,0.022949, 0.053467, 0.962646,-1.747131, 1.693726, -0.381470,gal
2020-03-06,17:30:17.558,0.025146, 0.052246, 0.956543,-1.937866, 2.113342, -0.236511,gal
2020-03-06,17:30:17.586,0.003418, 0.052002, 0.953125,-1.800537, 2.029419, 1.937866,gal
2020-03-06,17:30:17.616,0.025146, 0.052734, 0.961182,-2.441406, 1.686096, -0.312805,gal
2020-03-06,17:30:17.646,0.020264, 0.055664, 0.966553,-2.052307, 2.082825, 0.091553,gal
2020-03-06,17:30:17.674,0.024170, 0.054199, 0.937500,-3.890991, 1.937866, -0.175476,gal
2020-03-06,17:30:17.702,0.024414, 0.053955, 0.960449,-1.449585, 1.853943, -0.373840,gal
2020-03-06,17:30:17.730,0.020020, 0.050293, 0.956055,-1.365662, 2.143860, -0.061035,gal
2020-03-06,17:30:17.760,0.021240, 0.045898, 0.954590,-2.128601, 1.403809, -0.404358,gal
2020-03-06,17:30:17.788,0.024658, 0.053955, 0.959229,-1.449585, 2.639771, -1.922607,gal
2020-03-06,17:30:17.815,0.015381, 0.055176, 0.958496,-1.899719, 1.319885, -0.656128,gal
2020-03-06,17:30:17.843,0.017578, 0.044678, 0.966553,-1.625061, 0.030518, -0.320435,gal
2020-03-06,17:30:17.872,0.016846, 0.052734, 0.965332,-1.998901, 1.724243, -0.099182,gal
2020-03-06,17:30:17.901,0.020020, 0.054688, 0.957031,-0.106812, 0.007629, 0.015259,gal
2020-03-06,17:30:17.930,0.023926, 0.052246, 0.954590,-1.319885, 1.853943, -0.221252,gal
2020-03-06,17:30:17.958,0.019043, 0.052734, 0.958008,-1.655579, 1.808167, -0.061035,gal
2020-03-06,17:30:17.986,0.022217, 0.051514, 0.954834,-2.166748, 1.449585, -0.350952,gal
2020-03-06,17:30:18.015,0.001221, 0.055664, 0.948486,-1.472473, 2.052307, 0.053406,gal
2020-03-06,17:30:18.044,0.017578, 0.051514, 0.956543,-2.128601, 1.602173, -0.274658,gal
2020-03-06,17:30:18.073,0.020996, 0.052734, 0.962646,-1.655579, 2.151489, -0.228882,gal
2020-03-06,17:30:18.101,0.014404, 0.053955, 0.957520,-1.960754, 1.914978, -0.419617,gal
2020-03-06,17:30:18.128,0.026611, 0.054688, 0.950684,-1.892090, 1.983643, -0.129700,gal
2020-03-06,17:30:18.158,0.022461, 0.049805, 0.958496,-1.693726, 1.792908, -0.152588,gal
2020-03-06,17:30:18.187,0.000977, 0.053223, 0.959717,-2.182007, 1.510620, -0.549316,gal
2020-03-06,17:30:18.215,0.024902, 0.049561, 0.955566,-0.053406, 2.593994, 0.236511,gal
2020-03-06,17:30:18.243,0.022461, 0.058838, 0.954102,-1.800537, 2.044678, 1.945496,gal
2020-03-06,17:30:18.273,0.019531, 0.049316, 0.955078,-1.785278, 1.869202, -0.190735,gal
2020-03-06,17:30:18.304,0.018311, 0.060303, 0.961426,-1.747131, 2.014160, -0.328064,gal
2020-03-06,17:30:18.333,0.024902, 0.052002, 0.958008,-2.403259, 1.518250, -0.205994,gal
2020-03-06,17:30:18.365,0.020264, 0.052490, 0.960205,-1.731873, 2.204895, -1.953125,gal
2020-03-06,17:30:18.396,0.002197, 0.050781, 0.954346,-3.829956, 1.800537, -0.312805,gal
2020-03-06,17:30:18.424,0.021973, 0.047363, 0.961182,-2.601624, 2.014160, -0.053406,gal
2020-03-06,17:30:18.454,0.015625, 0.055176, 0.953613,-1.586914, 2.357483, -0.137329,gal
2020-03-06,17:30:18.485,0.019531, 0.051514, 0.968506,-2.593994, 1.831055, -0.404358,gal
2020-03-06,17:30:18.513,0.019775, 0.053467, 0.955566,-1.693726, 2.212524, -1.953125,gal
2020-03-06,17:30:18.541,0.027100, 0.061279, 0.954834,-1.655579, 1.831055, -0.411987,gal
2020-03-06,17:30:18.570,0.026123, 0.048828, 0.959961,-2.098083, 1.510620, -0.564575,gal
2020-03-06,17:30:18.601,0.019775, 0.048584, 0.947021,-1.243591, 1.991272, -0.503540,gal
2020-03-06,17:30:18.634,0.000488, 0.049561, 0.964844,-2.296448, 1.586914, -0.488281,gal
2020-03-06,17:30:18.662,0.018799, 0.049561, 0.949219,-1.525879, 2.113342, 0.053406,gal
2020-03-06,17:30:18.689,0.021240, 0.057129, 0.965576,-2.212524, 1.739502, -0.251770,gal
2020-03-06,17:30:18.717,0.022461, 0.051758, 0.953613,-1.731873, 1.892090, -0.274658,gal
2020-03-06,17:30:18.748,0.000244, 0.051270, 0.962402,-1.609802, 1.983643, -0.350952,gal
2020-03-06,17:30:18.781,0.020020, 0.054932, 0.954346,-2.540588, 1.564026, -0.450134,gal
2020-03-06,17:30:18.809,0.020508, 0.053467, 0.957764,-1.792908, 2.197266, 0.099182,gal
2020-03-06,17:30:18.838,0.019043, 0.054199, 0.958252,-2.334595, 1.686096, 0.106812,gal
2020-03-06,17:30:18.866,0.020508, 0.053955, 0.955566,-2.037048, 1.777649, -0.526428,gal
2020-03-06,17:30:18.896,0.015625, 0.049072, 0.956787,-1.541138, 0.083923, 0.022888,gal
2020-03-06,17:30:18.925,0.019531, 0.061279, 0.962891,-2.853394, 1.510620, -0.419617,gal
2020-03-06,17:30:18.953,0.023193, 0.053467, 0.950439,-2.067566, 2.380371, 0.068665,gal
2020-03-06,17:30:18.981,0.022461, 0.058105, 0.960693,-2.044678, 1.556396, -0.373840,gal
2020-03-06,17:30:19.009,0.018799, 0.050049, 0.953613,-1.647949, 1.747131, -0.404358,gal
2020-03-06,17:30:19.036,0.021240, 0.050537, 0.967285,-2.029419, 3.860474, -0.198364,gal
2020-03-06,17:30:19.066,0.021729, 0.057129, 0.959473,-2.357483, 0.015259, -0.175476,gal
2020-03-06,17:30:19.099,0.019043, 0.051758, 0.957031,-1.564026, 1.846313, -0.297546,gal
2020-03-06,17:30:19.130,0.019043, 0.052246, 0.965820,-1.998901, 1.731873, -0.251770,gal
2020-03-06,17:30:19.160,0.020508, 0.050293, 0.966797,-0.022888, 1.861572, -0.221252,gal
2020-03-06,17:30:19.187,0.020264, 0.057617, 0.958008,-1.579285, 2.319336, 0.030518,gal
2020-03-06,17:30:19.217,0.020752, 0.052490, 0.966309,-2.326965, 1.525879, -0.167847,gal
2020-03-06,17:30:19.246,0.017334, 0.051758, 0.952881,-1.632690, 2.273560, -0.183105,gal
2020-03-06,17:30:19.274,0.016846, 0.053955, 0.957031,-2.326965, 1.724243, -0.083923,gal
2020-03-06,17:30:19.302,0.021973, 0.033447, 0.954102,-1.586914, 2.021790, -0.061035,gal
2020-03-06,17:30:19.329,0.031006, 0.054443, 0.963867,-1.678467, 3.837585, -0.007629,gal
2020-03-06,17:30:19.359,0.016602, 0.053711, 0.959717,-2.189636, 1.777649, -0.213623,gal
2020-03-06,17:30:19.390,0.020264, 0.053955, 0.958252,-2.029419, 2.243042, -0.038147,gal
2020-03-06,17:30:19.418,0.018555, 0.049805, 0.964355,-0.076294, 1.846313, 1.930237,gal
2020-03-06,17:30:19.448,0.021484, 0.054932, 0.951660,-1.914978, 2.265930, 0.221252,gal
2020-03-06,17:30:19.477,0.024414, 0.052002, 0.962891,-1.396179, 2.059937, 0.068665,gal
2020-03-06,17:30:19.506,0.017334, 0.049805, 0.962646,-2.349854, 1.785278, -0.404358,gal
2020-03-06,17:30:19.538,0.019043, 0.051270, 0.958008,-1.518250, 2.426147, 0.122070,gal
2020-03-06,17:30:19.569,0.020508, 0.056396, 0.951416,-2.319336, 1.922607, 1.945496,gal
2020-03-06,17:30:19.598,0.022949, 0.035400, 0.959229,-1.502991, 1.861572, -0.198364,gal
2020-03-06,17:30:19.625,0.017578, 0.050781, 0.966797,-1.739502, 1.815796, -0.152588,gal
2020-03-06,17:30:19.654,0.020508, 0.052734, 0.963867,-2.380371, 1.716614, -0.061035,gal
2020-03-06,17:30:19.685,0.024414, 0.056396, 0.961182,-3.906250, 1.976013, 0.000000,gal
2020-03-06,17:30:19.713,0.021484, 0.057129, 0.949463,-1.960754, 1.907349, 0.175476,gal
2020-03-06,17:30:19.741,0.024170, 0.050293, 0.957275,-1.678467, 1.724243, -0.572205,gal
2020-03-06,17:30:19.769,0.021729, 0.048584, 0.964844,-1.594543, 2.067566, 0.007629,gal
2020-03-06,17:30:19.797,0.022949, 0.057129, 0.953857,-2.044678, 1.792908, -0.297546,gal
2020-03-06,17:30:19.829,0.021240, 0.050537, 0.957764,-1.274109, 1.731873, -0.160217,gal
2020-03-06,17:30:19.859,0.020752, 0.056885, 0.958740,-1.899719, 2.143860, 0.236511,gal
2020-03-06,17:30:19.887,0.032715, 0.059570, 0.963867,-2.021790, 2.273560, 0.251770,gal
2020-03-06,17:30:19.916,0.020264, 0.052002, 0.957031,-0.350952, 1.716614, -0.411987,gal
2020-03-06,17:30:19.947,0.029541, 0.039795, 0.956055,-2.326965, 0.938416, -0.892639,gal
2020-03-06,17:30:19.976,0.023193, 0.049561, 0.965820,-2.632141, 2.754211, 0.289917,gal
2020-03-06,17:30:20.004,0.031006, 0.065918, 0.961182,-2.517700, 2.540588, 0.495911,gal
2020-03-06,17:30:20.031,0.018555, 0.044922, 0.951172,-1.289368, 1.380920, -0.549316,gal
2020-03-06,17:30:20.061,0.016113, 0.048340, 0.958740,-1.663208, 3.837585, -0.083923,gal
2020-03-06,17:30:20.090,0.024414, 0.059326, 0.957275,-2.059937, 1.983643, 0.015259,gal
2020-03-06,17:30:20.117,0.020508, 0.050293, 0.967529,-1.342773, 2.212524, -1.800537,gal
2020-03-06,17:30:20.145,0.019531, 0.053223, 0.957031,-1.892090, 1.586914, -0.434875,gal
2020-03-06,17:30:20.173,0.020996, 0.051025, 0.957520,-2.212524, 1.846313, 0.137329,gal
2020-03-06,17:30:20.203,0.022461, 0.055908, 0.959961,-1.945496, 2.388000, 0.122070,gal
2020-03-06,17:30:20.231,0.025635, 0.056396, 0.954834,-3.906250, 1.884460, -0.007629,gal
2020-03-06,17:30:20.259,0.021240, 0.056396, 0.960449,-1.655579, 1.968384, -0.358582,gal
2020-03-06,17:30:20.287,0.017578, 0.052246, 0.958496,-1.602173, 1.884460, -0.114441,gal
2020-03-06,17:30:20.314,0.022705, 0.051270, 0.949707,-1.945496, 1.770020, -0.236511,gal
2020-03-06,17:30:20.343,0.018555, 0.051025, 0.959961,-1.708984, 1.892090, -0.244141,gal
2020-03-06,17:30:20.374,0.024170, 0.050293, 0.956055,-2.136230, 1.785278, -0.358582,gal
2020-03-06,17:30:20.402,0.020508, 0.050537, 0.953857,-2.098083, 2.182007, -0.221252,gal
2020-03-06,17:30:20.430,0.022949, 0.057129, 0.963135,-1.792908, 0.061035, -0.442505,gal
2020-03-06,17:30:20.457,0.019043, 0.048584, 0.954834,-1.800537, 1.869202, -0.381470,gal
2020-03-06,17:30:20.486,0.017822, 0.050049, 0.958008,-1.632690, 3.875732, -0.404358,gal
2020-03-06,17:30:20.515,0.003174, 0.053955, 0.951660,-2.311707, 1.960754, -0.106812,gal
2020-03-06,17:30:20.544,0.022217, 0.050293, 0.963379,-2.120972, 2.143860, -0.228882,gal
2020-03-06,17:30:20.572,0.014648, 0.054932, 0.955078,-1.449585, 2.113342, -0.167847,gal
2020-03-06,17:30:20.600,0.018066, 0.050293, 0.956299,-2.471924, 1.304626, -0.526428,gal
2020-03-06,17:30:20.628,0.021973, 0.053467, 0.958984,-2.006531, 2.265930, 0.106812,gal
2020-03-06,17:30:20.657,0.024414, 0.054688, 0.955566,-2.220154, 1.693726, -1.899719,gal
2020-03-06,17:30:20.684,0.025391, 0.046875, 0.957520,-1.670837, 0.076294, -0.289917,gal
2020-03-06,17:30:20.712,0.022217, 0.048584, 0.938721,-1.457214, 2.197266, -0.335693,gal
2020-03-06,17:30:20.740,0.020020, 0.056885, 0.956787,-2.250671, 1.617432, -0.022888,gal
2020-03-06,17:30:20.769,0.024902, 0.050293, 0.959717,-2.197266, 2.098083, -0.068665,gal
2020-03-06,17:30:20.800,0.021729, 0.055664, 0.964355,-1.747131, 2.227783, -0.099182,gal
2020-03-06,17:30:20.828,0.020508, 0.052734, 0.965820,-2.220154, 1.785278, -0.305176,gal
2020-03-06,17:30:20.855,0.017334, 0.053467, 0.961914,-1.792908, 2.235413, 1.846313,gal
2020-03-06,17:30:20.883,0.022461, 0.051758, 0.955078,-2.113342, 1.365662, -0.473022,gal
2020-03-06,17:30:20.911,0.026123, 0.048340, 0.958740,-1.670837, 2.037048, -0.068665,gal
2020-03-06,17:30:20.941,0.017090, 0.052979, 0.957275,-1.731873, 1.625061, -0.343323,gal
2020-03-06,17:30:20.970,0.018066, 0.031494, 0.958008,-1.716614, 1.449585, -0.244141,gal
2020-03-06,17:30:20.998,0.016602, 0.053955, 0.960693,-2.197266, 2.151489, -0.282288,gal
2020-03-06,17:30:21.025,0.022461, 0.059570, 0.958984,-2.326965, 2.082825, -0.160217,gal
2020-03-06,17:30:21.054,0.024414, 0.053955, 0.957275,-1.884460, 1.831055, -0.152588,gal
2020-03-06,17:30:21.082,0.016602, 0.049805, 0.955322,-1.617432, 1.754761, -0.267029,gal
2020-03-06,17:30:21.110,0.017334, 0.050537, 0.955078,-2.441406, 1.091003, -0.373840,gal
2020-03-06,17:30:21.138,0.022217, 0.051270, 0.955078,-1.777649, 2.525330, 0.305176,gal
2020-03-06,17:30:21.165,0.018555, 0.056641, 0.961182,-1.846313, 1.686096, -0.366211,gal
2020-03-06,17:30:21.193,0.020508, 0.047607, 0.968262,-1.754761, 1.350403, -0.625610,gal
2020-03-06,17:30:21.224,0.016357, 0.046387, 0.962891,-1.815796, 1.739502, -0.305176,gal
2020-03-06,17:30:21.252,0.021484, 0.055420, 0.958252,-2.357483, 2.052307, 0.152588,gal
2020-03-06,17:30:21.279,0.024902, 0.055664, 0.958740,-2.113342, 1.976013, -0.099182,gal
2020-03-06,17:30:21.307,0.013184, 0.052490, 0.954102,-1.411438, 1.640320, -0.556946,gal
2020-03-06,17:30:21.337,0.020264, 0.042725, 0.962646,-1.663208, 1.373291, -0.534058,gal
2020-03-06,17:30:21.366,0.017334, 0.052734, 0.952148,-1.762390, 2.319336, 1.937866,gal
2020-03-06,17:30:21.393,0.022705, 0.059082, 0.953125,-2.410889, 2.128601, 0.343323,gal
2020-03-06,17:30:21.421,0.020020, 0.044922, 0.941406,-1.373291, 1.411438, -0.404358,gal
2020-03-06,17:30:21.448,0.014648, 0.045898, 0.952148,-2.067566, 1.968384, -0.709534,gal
2020-03-06,17:30:21.476,0.024658, 0.052734, 0.960449,-2.990723, 1.861572, -0.083923,gal
2020-03-06,17:30:21.504,0.023926, 0.065186, 0.954102,-1.113892, 2.761841, 0.091553,gal
2020-03-06,17:30:21.534,0.019287, 0.051514, 0.958984,-1.495361, 1.243591, -0.595093,gal
2020-03-06,17:30:21.562,0.017334, 0.046387, 0.939209,-1.632690, 1.701355, -0.556946,gal
2020-03-06,17:30:21.590,0.015625, 0.050293, 0.954346,-2.441406, 2.014160, -0.419617,gal
2020-03-06,17:30:21.618,0.020996, 0.049316, 0.951904,-2.258301, 1.792908, -0.160217,gal
2020-03-06,17:30:21.646,0.024170, 0.050537, 0.963379,-1.724243, 2.082825, -0.152588,gal
2020-03-06,17:30:21.673,0.019531, 0.052979, 0.954346,-1.655579, 2.288818, -0.366211,gal
2020-03-06,17:30:21.701,0.023193, 0.049316, 0.959961,-1.777649, 1.564026, -0.343323,gal
2020-03-06,17:30:21.729,0.021973, 0.048828, 0.955811,-1.670837, 2.159119, -0.198364,gal
2020-03-06,17:30:21.759,0.021973, 0.051270, 0.958496,-2.319336, 1.502991, -0.335693,gal
2020-03-06,17:30:21.788,0.022217, 0.050049, 0.947510,-2.037048, 2.288818, -0.061035,gal
2020-03-06,17:30:21.816,0.017334, 0.054688, 0.957031,-1.853943, 1.762390, -0.053406,gal
2020-03-06,17:30:21.844,0.022461, 0.049561, 0.947998,-2.662659, 2.151489, 0.099182,gal
2020-03-06,17:30:21.871,0.021973, 0.049805, 0.955322,-1.686096, 1.907349, -0.099182,gal
2020-03-06,17:30:21.901,0.019287, 0.051514, 0.953369,-1.945496, 1.869202, -0.099182,gal
2020-03-06,17:30:21.931,0.028564, 0.054932, 0.958252,-1.762390, 2.189636, 0.198364,gal
2020-03-06,17:30:21.960,0.016113, 0.051758, 0.962158,-1.304626, 1.678467, -0.694275,gal
2020-03-06,17:30:21.988,0.014648, 0.045654, 0.963867,-2.220154, 1.922607, -1.907349,gal
2020-03-06,17:30:22.016,0.018555, 0.049805, 0.966797,-2.212524, 1.701355, -0.778198,gal
2020-03-06,17:30:22.044,0.021973, 0.055664, 0.967773,-2.677917, 2.365112, 1.914978,gal
2020-03-06,17:30:22.073,0.029297, 0.057861, 0.961426,-1.846313, 2.197266, -0.205994,gal
2020-03-06,17:30:22.101,0.019775, 0.049561, 0.938232,-1.388550, 1.533508, -0.663757,gal
2020-03-06,17:30:22.128,0.017822, 0.040283, 0.955078,-0.083923, 1.510620, -0.633240,gal
2020-03-06,17:30:22.156,0.027344, 0.052979, 0.962158,-2.601624, 2.540588, 1.937866,gal
2020-03-06,17:30:22.185,0.023926, 0.062500, 0.967041,-1.823425, 2.197266, -0.038147,gal
2020-03-06,17:30:22.214,0.024902, 0.050293, 0.953369,-1.312256, 1.342773, -0.114441,gal
2020-03-06,17:30:22.244,0.011230, 0.046387, 0.958740,-1.739502, 1.609802, -0.465393,gal
2020-03-06,17:30:22.271,0.020508, 0.051758, 0.954590,-2.731323, 2.037048, -0.099182,gal
2020-03-06,17:30:22.299,0.027588, 0.051270, 0.938721,-1.640320, 2.410889, 0.228882,gal
2020-03-06,17:30:22.328,0.017822, 0.057617, 0.957275,-1.457214, 2.128601, -0.152588,gal
2020-03-06,17:30:22.357,0.019531, 0.048340, 0.958008,-1.861572, 1.548767, -0.556946,gal
2020-03-06,17:30:22.393,0.018311, 0.045166, 0.958740,-1.396179, 1.724243, 0.030518,gal
2020-03-06,17:30:22.426,0.017822, 0.050537, 0.953125,-1.571655, 0.015259, -0.328064,gal
2020-03-06,17:30:22.455,0.017822, 0.049072, 0.961182,-1.396179, 2.059937, -0.030518,gal
2020-03-06,17:30:22.484,0.021484, 0.055908, 0.955322,-2.395630, 1.960754, -0.259399,gal
2020-03-06,17:30:22.515,0.026123, 0.053711, 0.955566,-1.976013, 2.426147, 0.228882,gal
2020-03-06,17:30:22.543,0.021973, 0.048340, 0.962646,-1.350403, 1.739502, -0.518799,gal
2020-03-06,17:30:22.570,0.020996, 0.050293, 0.957275,-1.998901, 2.166748, -0.068665,gal
2020-03-06,17:30:22.598,0.023193, 0.056641, 0.955566,-1.739502, 2.571106, 0.289917,gal
2020-03-06,17:30:22.626,0.019531, 0.050781, 0.958008,-2.105713, 1.808167, -0.289917,gal
2020-03-06,17:30:22.655,0.020020, 0.052246, 0.958984,-1.762390, 2.220154, -0.190735,gal
2020-03-06,17:30:22.683,0.017822, 0.056152, 0.957031,-1.892090, 1.686096, 1.945496,gal
2020-03-06,17:30:22.711,0.020264, 0.051758, 0.957764,-1.937866, 3.845215, -0.358582,gal
2020-03-06,17:30:22.738,0.021729, 0.052246, 0.955322,-1.937866, 2.311707, 0.053406,gal
2020-03-06,17:30:22.767,0.023926, 0.055908, 0.965088,-2.174377, 2.021790, -0.160217,gal
2020-03-06,17:30:22.795,0.021484, 0.046387, 0.958984,-1.869202, 1.853943, -0.297546,gal
2020-03-06,17:30:22.822,0.019287, 0.055664, 0.951660,-1.609802, 2.296448, -0.381470,gal
2020-03-06,17:30:22.850,0.020996, 0.056641, 0.962891,-2.830505, 1.335144, -0.495911,gal
2020-03-06,17:30:22.878,0.024414, 0.045898, 0.953369,-1.266479, 2.380371, -0.183105,gal
2020-03-06,17:30:22.906,0.021973, 0.058838, 0.962158,-1.564026, 3.807068, -0.457764,gal
2020-03-06,17:30:22.933,0.020752, 0.054199, 0.956299,-2.441406, 1.579285, -0.297546,gal
2020-03-06,17:30:22.961,0.017090, 0.050049, 0.953613,-1.091003, 2.258301, -0.289917,gal
2020-03-06,17:30:22.988,0.015137, 0.049316, 0.963867,-2.128601, 1.754761, -0.297546,gal
2020-03-06,17:30:23.016,0.025391, 0.053467, 0.951660,-3.829956, 1.968384, -0.320435,gal
2020-03-06,17:30:23.044,0.015381, 0.050781, 0.958008,-1.625061, 2.166748, -0.282288,gal
2020-03-06,17:30:23.072,0.020508, 0.055176, 0.954346,-2.357483, 1.800537, -0.251770,gal
2020-03-06,17:30:23.100,0.021973, 0.049072, 0.959229,-2.120972, 2.235413, 0.137329,gal
2020-03-06,17:30:23.127,0.021973, 0.054932, 0.959717,-1.655579, 0.045776, 0.091553,gal
2020-03-06,17:30:23.155,0.024170, 0.057617, 0.960449,-1.945496, 3.868103, -0.404358,gal
2020-03-06,17:30:23.185,0.019287, 0.047607, 0.961182,-1.609802, 1.617432, -0.495911,gal
2020-03-06,17:30:23.213,0.017578, 0.058594, 0.961670,-0.053406, 1.533508, -0.526428,gal
2020-03-06,17:30:23.241,0.021729, 0.051758, 0.958252,-2.326965, 2.754211, 0.099182,gal
2020-03-06,17:30:23.269,0.029541, 0.047363, 0.955811,-2.166748, 2.059937, 0.045776,gal
2020-03-06,17:30:23.296,0.016357, 0.043213, 0.956787,-1.739502, 1.373291, -0.762939,gal
2020-03-06,17:30:23.325,0.030273, 0.046387, 0.964111,-1.609802, 2.014160, -0.465393,gal
2020-03-06,17:30:23.353,0.019531, 0.054199, 0.964844,-2.861023, 2.143860, 0.366211,gal
2020-03-06,17:30:23.381,0.016846, 0.056641, 0.958008,-1.510620, 2.174377, -1.953125,gal
2020-03-06,17:30:23.408,0.015137, 0.039551, 0.950928,-1.373291, 1.358032, -0.770569,gal
2020-03-06,17:30:23.436,0.013672, 0.046631, 0.955566,-2.754211, 1.808167, -0.282288,gal
2020-03-06,17:30:23.465,0.027100, 0.059570, 0.963623,-1.419067, 2.830505, 0.442505,gal
2020-03-06,17:30:23.493,0.022949, 0.060303, 0.956787,-1.815796, 1.647949, -0.053406,gal
2020-03-06,17:30:23.520,0.022217, 0.044922, 0.962402,-2.029419, 1.296997, -0.190735,gal
2020-03-06,17:30:23.549,0.016602, 0.053467, 0.958740,-1.533508, 2.357483, 0.091553,gal
2020-03-06,17:30:23.576,0.020752, 0.054443, 0.957275,-1.937866, 1.586914, -0.205994,gal
2020-03-06,17:30:23.605,0.024414, 0.045654, 0.958740,-2.166748, 1.815796, -0.175476,gal
2020-03-06,17:30:23.632,0.021240, 0.054443, 0.953125,-2.197266, 2.212524, 0.190735,gal
2020-03-06,17:30:23.660,0.025635, 0.049316, 0.962646,-2.082825, 1.785278, -0.305176,gal
2020-03-06,17:30:23.688,0.018799, 0.053467, 0.959229,-1.258850, 2.136230, -0.137329,gal
2020-03-06,17:30:23.716,0.019287, 0.051758, 0.953857,-2.227783, 1.335144, -0.076294,gal
2020-03-06,17:30:23.745,0.027588, 0.053467, 0.956787,-1.708984, 2.311707, 0.061035,gal
2020-03-06,17:30:23.773,0.015625, 0.055176, 0.959717,-1.708984, 2.159119, -0.129700,gal
2020-03-06,17:30:23.800,0.027100, 0.051758, 0.955811,-3.890991, 2.151489, -0.038147,gal
2020-03-06,17:30:23.828,0.017334, 0.059326, 0.959717,-1.091003, 2.845764, -0.328064,gal
2020-03-06,17:30:23.856,0.001465, 0.046387, 0.948730,-1.968384, 1.472473, -0.518799,gal
2020-03-06,17:30:23.885,0.021240, 0.046875, 0.950195,-2.418518, 2.098083, 0.175476,gal
2020-03-06,17:30:23.913,0.025391, 0.057129, 0.954590,-1.861572, 2.357483, 0.213623,gal
2020-03-06,17:30:23.941,0.020752, 0.051025, 0.955566,-2.067566, 1.785278, -0.404358,gal
2020-03-06,17:30:23.969,0.022705, 0.052002, 0.960449,-2.128601, 2.052307, 0.114441,gal
2020-03-06,17:30:23.997,0.025635, 0.061768, 0.958008,-1.945496, 2.151489, 0.030518,gal
2020-03-06,17:30:24.026,0.020264, 0.049316, 0.953613,-1.808167, 1.487732, -0.152588,gal
2020-03-06,17:30:24.053,0.021729, 0.043457, 0.952637,-1.380920, 2.243042, -0.305176,gal
2020-03-06,17:30:24.081,0.024170, 0.056641, 0.961182,-2.433777, 1.876831, -0.061035,gal
2020-03-06,17:30:24.109,0.026855, 0.052490, 0.952393,-2.120972, 2.082825, -0.183105,gal
2020-03-06,17:30:24.137,0.017090, 0.048096, 0.960693,-1.686096, 1.876831, -0.129700,gal
2020-03-06,17:30:24.165,0.018555, 0.049316, 0.955078,-2.761841, 1.785278, -0.282288,gal
2020-03-06,17:30:24.192,0.022217, 0.049316, 0.966797,-1.960754, 2.067566, 0.251770,gal
2020-03-06,17:30:24.220,0.020264, 0.051514, 0.951660,-1.457214, 1.937866, -0.122070,gal
2020-03-06,17:30:24.248,0.016846, 0.050537, 0.961426,-1.884460, 1.289368, -0.541687,gal
2020-03-06,17:30:24.276,0.020020, 0.053711, 0.955811,-1.693726, 2.212524, 0.282288,gal
2020-03-06,17:30:24.305,0.024170, 0.060303, 0.958252,-1.945496, 2.311707, 1.945496,gal
2020-03-06,17:30:24.333,0.022461, 0.052002, 0.963135,-1.426697, 1.930237, -0.137329,gal
2020-03-06,17:30:24.361,0.018311, 0.049805, 0.958008,-0.007629, 1.846313, -0.160217,gal
2020-03-06,17:30:24.389,0.016602, 0.048096, 0.962158,-2.540588, 1.625061, -0.282288,gal
2020-03-06,17:30:24.416,0.020752, 0.055664, 0.958252,-1.495361, 2.639771, 0.335693,gal
2020-03-06,17:30:24.446,0.018066, 0.054443, 0.958252,-1.907349, 1.365662, -0.373840,gal
2020-03-06,17:30:24.474,0.018311, 0.043213, 0.956543,-1.724243, 1.571655, -0.549316,gal
2020-03-06,17:30:24.501,0.019531, 0.046875, 0.957031,-2.365112, 2.029419, 0.068665,gal
2020-03-06,17:30:24.529,0.024414, 0.059082, 0.958740,-2.510071, 2.120972, 0.228882,gal
2020-03-06,17:30:24.557,0.025879, 0.055176, 0.960205,-1.014709, 1.823425, -0.625610,gal
2020-03-06,17:30:24.586,0.014648, 0.052246, 0.966064,-1.472473, 1.991272, -0.099182,gal
2020-03-06,17:30:24.614,0.030762, 0.050049, 0.958252,-1.869202, 1.235962, -0.511169,gal
2020-03-06,17:30:24.641,0.019531, 0.051025, 0.958008,-3.875732, 2.304077, 0.045776,gal
2020-03-06,17:30:24.669,0.019531, 0.056641, 0.963623,-2.273560, 3.868103, -1.937866,gal
2020-03-06,17:30:24.697,0.024414, 0.054199, 0.957031,-1.548767, 0.030518, -0.183105,gal
2020-03-06,17:30:24.726,0.016602, 0.052490, 0.958740,-1.274109, 1.808167, -0.213623,gal
2020-03-06,17:30:24.754,0.017822, 0.045654, 0.958252,-2.609253, 1.434326, -0.442505,gal
2020-03-06,17:30:24.781,0.024902, 0.053467, 0.954590,-1.747131, 2.693176, 0.190735,gal
2020-03-06,17:30:24.809,0.022461, 0.058105, 0.960449,-1.785278, 2.029419, -0.045776,gal
2020-03-06,17:30:24.837,0.022705, 0.031738, 0.943604,-1.373291, 2.113342, -0.297546,gal
2020-03-06,17:30:24.866,0.011719, 0.049561, 0.956787,-1.327515, 1.739502, -0.236511,gal
2020-03-06,17:30:24.896,0.018555, 0.051514, 0.963867,-2.555847, 1.823425, -0.228882,gal
2020-03-06,17:30:24.924,0.022217, 0.048828, 0.953613,-1.937866, 2.342224, 0.022888,gal
2020-03-06,17:30:24.951,0.021240, 0.075439, 0.960938,-2.319336, 1.991272, 0.167847,gal
2020-03-06,17:30:24.979,0.024170, 0.049316, 0.961914,-2.182007, 1.594543, -0.381470,gal
2020-03-06,17:30:25.008,0.017334, 0.048584, 0.938721,-1.487732, 2.288818, -0.114441,gal
