timestamp,ax,ay,az,gx,gy,gz,label
2020-03-06,13:53:19.719,0.085938, 0.128906, 0.953369,-2.426147, 0.724792, -3.822327,gal
2020-03-06,13:53:19.747,0.089600, 0.163086, 0.966797,-1.487732, 2.388000, 1.396179,gal
2020-03-06,13:53:19.775,0.069336, 0.131348, 0.962646,-2.525330, 2.464294, 5.096436,gal
2020-03-06,13:53:19.802,0.052002, 0.123535, 0.968262,-4.829407, 0.801086, 3.456116,gal
2020-03-06,13:53:19.830,0.094971, 0.134521, 0.958740,-3.044128, 1.754761, 1.518250,gal
2020-03-06,13:53:19.857,0.084229, 0.130371, 0.951660,-0.183105, 4.463196, 1.449585,gal
2020-03-06,13:53:19.886,0.040039, 0.123779, 0.957275,-2.838135, -0.114441, 0.923157,gal
2020-03-06,13:53:19.915,0.080566, 0.112061, 0.959473,-2.929688, 0.564575, -0.366211,gal
2020-03-06,13:53:19.943,0.088867, 0.137939, 0.954102,0.625610, 6.759644, 1.220703,gal
2020-03-06,13:53:19.970,0.068359, 0.134277, 0.964111,1.167297, 7.301331, -1.167297,gal
2020-03-06,13:53:19.998,0.044434, 0.120605, 0.965088,0.328064, 2.632141, -0.152588,gal
2020-03-06,13:53:20.025,0.062012, 0.133789, 0.961914,-0.228882, 1.152039, -2.937317,gal
2020-03-06,13:53:20.053,0.087402, 0.133301, 0.946533,1.716614, 3.601074, -4.264832,gal
2020-03-06,13:53:20.085,0.072998, 0.150879, 0.958740,2.670288, 10.284424, -1.861572,gal
2020-03-06,13:53:20.119,0.039795, 0.155762, 0.966064,-0.518799, 3.913879, -0.419617,gal
2020-03-06,13:53:20.149,0.093018, 0.151611, 0.952393,-1.518250, 3.334045, 4.081726,gal
2020-03-06,13:53:20.177,0.027832, 0.166016, 0.964844,0.854492, 3.463745, 3.112793,gal
2020-03-06,13:53:20.206,0.062988, 0.128418, 0.957520,-1.296997, 4.539490, 2.693176,gal
2020-03-06,13:53:20.235,0.041504, 0.137695, 0.960449,-0.465393, 9.223938, 4.669189,gal
2020-03-06,13:53:20.263,0.049072, 0.168457, 0.963623,-0.488281, 5.424500, 4.623413,gal
2020-03-06,13:53:20.291,0.053467, 0.137939, 0.969238,-1.647949, 1.632690, -0.671387,gal
2020-03-06,13:53:20.318,0.033691, 0.145508, 0.964355,-2.563477, -0.770569, -0.236511,gal
2020-03-06,13:53:20.347,0.074463, 0.135010, 0.956055,-2.746582, -0.541687, -1.777649,gal
2020-03-06,13:53:20.377,0.058105, 0.162842, 0.962646,-2.639771, 2.029419, 6.164551,gal
2020-03-06,13:53:20.406,0.064697, 0.145508, 0.963379,-2.227783, -1.846313, -2.700806,gal
2020-03-06,13:53:20.434,0.053955, 0.129150, 0.943604,-0.495911, 2.342224, 1.350403,gal
2020-03-06,13:53:20.462,0.040771, 0.126465, 0.955566,0.755310, 3.890991, -1.380920,gal
2020-03-06,13:53:20.493,0.063232, 0.134521, 0.962891,2.586365, 6.034851, -4.104614,gal
2020-03-06,13:53:20.521,0.049316, 0.146240, 0.960205,2.700806, 2.929688, -2.830505,gal
2020-03-06,13:53:20.550,0.065430, 0.127197, 0.954834,3.265381, 3.959656, -6.156921,gal
2020-03-06,13:53:20.578,0.031494, 0.155518, 0.958740,4.669189, 6.614685, -5.088806,gal
2020-03-06,13:53:20.606,0.020752, 0.169434, 0.959717,4.898071, 4.776001, -5.149841,gal
2020-03-06,13:53:20.634,0.048828, 0.151123, 0.954590,5.981445, 5.226135, -6.278992,gal
2020-03-06,13:53:20.662,0.078125, 0.180176, 0.951660,6.706238, 7.888794, -8.499146,gal
2020-03-06,13:53:20.691,0.054443, 0.195557, 0.946289,8.926392, 18.981934, 0.411987,gal
2020-03-06,13:53:20.719,0.028809, 0.166748, 0.960205,9.254456, 21.629333, 2.342224,gal
2020-03-06,13:53:20.747,0.019531, 0.158447, 0.954590,11.291504, 19.386292, -8.575439,gal
2020-03-06,13:53:20.775,-0.008057, 0.201904, 0.960938,8.087158, 13.175964, -4.104614,gal
2020-03-06,13:53:20.806,-0.008789, 0.192383, 0.968994,4.760742, 2.731323, 0.534058,gal
2020-03-06,13:53:20.834,0.045898, 0.168701, 0.979492,7.606506, 4.112244, -10.894775,gal
2020-03-06,13:53:20.863,-0.020020, 0.199219, 0.966797,10.032654, -3.433228, -10.719299,gal
2020-03-06,13:53:20.890,-0.015137, 0.199219, 0.957764,9.567261, -12.390137, -11.184692,gal
2020-03-06,13:53:20.919,0.029785, 0.190674, 0.950928,8.537292, -13.816833, -20.416260,gal
2020-03-06,13:53:20.949,0.075928, 0.187500, 0.932861,14.480591, 2.868652, -15.357971,gal
2020-03-06,13:53:20.977,0.012939, 0.214355, 0.927490,17.242432, 15.853882, -10.459900,gal
2020-03-06,13:53:21.005,-0.019531, 0.257324, 0.952393,14.465332, 15.602112, -2.059937,gal
2020-03-06,13:53:21.033,0.010742, 0.238770, 0.947266,16.708374, 13.526917, -8.430481,gal
2020-03-06,13:53:21.061,0.006348, 0.245850, 0.953125,22.781372, 11.787415, -18.669128,gal
2020-03-06,13:53:21.090,-0.016602, 0.260254, 0.945801,26.031494, 15.525818, -17.829895,gal
2020-03-06,13:53:21.118,-0.041016, 0.276855, 0.914062,24.398804, 16.479492, -12.786865,gal
2020-03-06,13:53:21.146,-0.029053, 0.285156, 0.948730,22.682190, 9.536743, -15.464783,gal
2020-03-06,13:53:21.173,-0.018799, 0.368408, 0.932617,18.203735, 10.635376, -4.119873,gal
2020-03-06,13:53:21.203,-0.041260, 0.396973, 0.911621,11.505127, 5.485535, 32.264709,gal
2020-03-06,13:53:21.231,-0.051270, 0.239990, 0.945068,12.573242, 5.989075, 29.045105,gal
2020-03-06,13:53:21.259,-0.107666, 0.228271, 0.948730,8.613586, 3.982544, 13.580322,gal
2020-03-06,13:53:21.287,-0.050049, 0.299805, 0.919189,15.548706, -1.098633, -18.569946,gal
2020-03-06,13:53:21.314,-0.011963, 0.428467, 0.923584,8.079529, -11.520386, 8.560181,gal
2020-03-06,13:53:21.342,-0.029785, 0.359863, 0.919678,5.554199, -14.114380, 16.166687,gal
2020-03-06,13:53:21.371,-0.036377, 0.280029, 0.916504,7.324219, -17.654419, -2.403259,gal
2020-03-06,13:53:21.399,-0.029541, 0.312500, 0.907959,10.719299, -17.776489, -17.341614,gal
2020-03-06,13:53:21.427,0.006104, 0.448242, 0.886230,4.722595, -11.215210, 7.308960,gal
2020-03-06,13:53:21.455,0.024414, 0.381592, 0.892822,7.972717, -11.566162, 17.997742,gal
2020-03-06,13:53:21.483,0.025879, 0.328857, 0.909180,9.696960, -3.173828, 10.246277,gal
2020-03-06,13:53:21.511,0.005371, 0.325195, 0.913330,14.236450, 2.456665, -7.164001,gal
2020-03-06,13:53:21.539,0.027832, 0.412354, 0.890137,13.885498, 4.608154, -5.844116,gal
2020-03-06,13:53:21.566,-0.013672, 0.415039, 0.899414,11.253357, -3.234863, 12.680054,gal
2020-03-06,13:53:21.594,-0.002930, 0.319580, 0.906494,9.956360, -6.042480, -1.182556,gal
2020-03-06,13:53:21.623,-0.002930, 0.378174, 0.962646,4.798889, 1.808167, -0.999451,gal
2020-03-06,13:53:21.652,0.009766, 0.435059, 0.903564,9.330750, -2.952576, -0.305176,gal
2020-03-06,13:53:21.679,-0.016846, 0.473877, 0.911133,7.652283, -13.618469, 8.735657,gal
2020-03-06,13:53:21.707,0.059570, 0.379639, 0.879395,12.702942, -18.447876, -7.209778,gal
2020-03-06,13:53:21.735,0.050293, 0.374268, 0.934082,11.474609, -13.351440, -3.005981,gal
2020-03-06,13:53:21.765,0.054199, 0.439453, 0.846436,13.511658, 6.721497, -1.892090,gal
2020-03-06,13:53:21.793,0.073730, 0.416504, 0.863525,19.683838, 0.839233, -3.181458,gal
2020-03-06,13:53:21.820,0.017822, 0.418945, 0.902588,13.015747, -5.004883, -7.385254,gal
2020-03-06,13:53:21.848,0.086914, 0.477295, 0.870117,18.280029, -3.082275, -13.008118,gal
2020-03-06,13:53:21.875,0.068848, 0.465820, 0.858398,16.609192, 5.218506, -4.219055,gal
2020-03-06,13:53:21.903,0.005615, 0.415771, 0.886230,16.494751, -0.648499, -12.634277,gal
2020-03-06,13:53:21.933,0.050781, 0.483887, 0.867676,14.846802, -5.790710, -19.386292,gal
2020-03-06,13:53:21.961,0.067383, 0.495361, 0.846191,12.359619, -1.472473, -12.672424,gal
2020-03-06,13:53:21.989,0.031494, 0.480713, 0.847168,13.893127, 6.500244, -9.338379,gal
2020-03-06,13:53:22.016,0.027588, 0.465332, 0.860352,15.876770, 6.141663, -13.603210,gal
2020-03-06,13:53:22.045,0.000244, 0.502197, 0.836670,14.465332, 6.805420, -5.905151,gal
2020-03-06,13:53:22.074,0.044678, 0.548828, 0.854004,10.482788, 7.308960, -2.792358,gal
2020-03-06,13:53:22.101,0.004639, 0.521240, 0.838379,8.651733, 8.155823, 0.183105,gal
2020-03-06,13:53:22.129,0.011963, 0.475098, 0.840576,8.979797, 14.007568, -6.690979,gal
2020-03-06,13:53:22.156,-0.016357, 0.518555, 0.820068,3.952026, 12.481689, -2.738953,gal
2020-03-06,13:53:22.186,0.017578, 0.529053, 0.832031,6.736755, 10.787964, -8.895874,gal
2020-03-06,13:53:22.214,-0.003906, 0.591553, 0.844727,3.860474, 7.736206, 10.314941,gal
2020-03-06,13:53:22.242,-0.042969, 0.502197, 0.852051,-1.914978, -2.983093, 6.256104,gal
2020-03-06,13:53:22.270,-0.015381, 0.518066, 0.840332,-0.923157, -10.688782, 4.653931,gal
2020-03-06,13:53:22.297,0.024902, 0.494629, 0.825928,6.904602, -9.193420, -4.638672,gal
2020-03-06,13:53:22.326,-0.016113, 0.523438, 0.853760,8.850098, -0.114441, 4.890442,gal
2020-03-06,13:53:22.354,0.020752, 0.516846, 0.807129,10.597229, 4.806519, -4.043579,gal
2020-03-06,13:53:22.382,-0.004395, 0.505859, 0.815674,13.107300, 11.146545, -6.752014,gal
2020-03-06,13:53:22.410,0.016602, 0.542725, 0.821777,14.167786, 13.504028, -3.166199,gal
2020-03-06,13:53:22.438,-0.015137, 0.554688, 0.807617,15.182495, 15.380859, -6.896973,gal
2020-03-06,13:53:22.467,0.006104, 0.538330, 0.808838,17.250061, 19.317627, -7.049561,gal
2020-03-06,13:53:22.494,-0.024170, 0.581055, 0.778564,21.080017, 22.506714, -11.405945,gal
2020-03-06,13:53:22.522,-0.049316, 0.598145, 0.804443,19.538879, 19.027710, -2.029419,gal
2020-03-06,13:53:22.550,-0.065918, 0.563477, 0.784180,18.264771, 9.742737, -2.952576,gal
2020-03-06,13:53:22.578,-0.042480, 0.573486, 0.782471,18.272400, 12.557983, -5.012512,gal
2020-03-06,13:53:22.606,-0.037354, 0.622314, 0.773682,17.593384, 14.442444, 1.014709,gal
2020-03-06,13:53:22.634,-0.070801, 0.603516, 0.773926,16.883850, 9.109497, 4.913330,gal
2020-03-06,13:53:22.661,-0.075195, 0.574707, 0.774414,20.332336, 4.814148, -8.750916,gal
2020-03-06,13:53:22.689,-0.022705, 0.674805, 0.743408,20.645142, 8.857727, -11.535645,gal
2020-03-06,13:53:22.717,-0.070801, 0.665283, 0.723633,21.423340, 12.397766, 0.320435,gal
2020-03-06,13:53:22.746,-0.079102, 0.616211, 0.760254,17.280579, 5.485535, 7.316589,gal
2020-03-06,13:53:22.774,-0.084961, 0.611084, 0.739014,22.399902, 5.828857, -11.589050,gal
2020-03-06,13:53:22.802,-0.037354, 0.698730, 0.710938,16.334534, 10.040283, -3.814697,gal
2020-03-06,13:53:22.829,-0.087891, 0.705322, 0.745605,21.530151, 5.088806, -14.251709,gal
2020-03-06,13:53:22.857,-0.107178, 0.649414, 0.729736,17.837524, -2.098083, -7.308960,gal
2020-03-06,13:53:22.886,-0.060303, 0.643555, 0.724365,14.953613, 3.746033, -13.984680,gal
2020-03-06,13:53:22.914,-0.074219, 0.751953, 0.702393,18.699646, 4.600525, -6.919861,gal
2020-03-06,13:53:22.942,-0.083984, 0.719727, 0.693604,22.254944, 1.747131, 1.197815,gal
2020-03-06,13:53:22.970,-0.117432, 0.658447, 0.688477,12.634277, 3.265381, 13.549805,gal
2020-03-06,13:53:22.997,-0.072998, 0.613770, 0.710205,11.924744, 9.063721, -2.571106,gal
2020-03-06,13:53:23.026,-0.088135, 0.728760, 0.698730,14.694214, 10.444641, -8.071899,gal
2020-03-06,13:53:23.054,-0.071533, 0.785645, 0.668457,16.120911, 6.774902, 2.510071,gal
2020-03-06,13:53:23.082,-0.118896, 0.727539, 0.671631,13.854980, -0.160217, 14.266968,gal
2020-03-06,13:53:23.109,-0.072754, 0.672363, 0.684570,18.058777, -1.060486, -1.274109,gal
2020-03-06,13:53:23.137,-0.061035, 0.773193, 0.651855,17.501831, 0.503540, 1.319885,gal
2020-03-06,13:53:23.166,-0.095703, 0.748291, 0.625977,17.791748, 3.799438, 8.018494,gal
2020-03-06,13:53:23.194,-0.099121, 0.718750, 0.671631,18.875122, 1.869202, 2.403259,gal
2020-03-06,13:53:23.221,-0.084473, 0.711670, 0.653076,16.723633, 5.126953, -0.900269,gal
2020-03-06,13:53:23.249,-0.075195, 0.759766, 0.633057,21.148682, 9.101868, -13.748169,gal
2020-03-06,13:53:23.276,-0.101318, 0.820557, 0.599854,22.384644, 4.470825, -4.753113,gal
2020-03-06,13:53:23.306,-0.095947, 0.768066, 0.610596,16.517639, -1.335144, 5.279541,gal
2020-03-06,13:53:23.335,-0.091553, 0.726074, 0.609863,17.417908, 5.569458, -8.171082,gal
2020-03-06,13:53:23.363,-0.066650, 0.750488, 0.606445,16.304016, 16.204834, -12.702942,gal
2020-03-06,13:53:23.390,-0.129395, 0.812988, 0.580811,19.020081, 15.266418, -23.551941,gal
2020-03-06,13:53:23.418,-0.129150, 0.834473, 0.578613,14.617920, 7.179260, -9.033203,gal
2020-03-06,13:53:23.446,-0.111816, 0.799561, 0.583496,11.718750, 5.409241, -8.369446,gal
2020-03-06,13:53:23.474,-0.139404, 0.779541, 0.563477,13.290405, 4.608154, -13.275146,gal
2020-03-06,13:53:23.502,-0.098633, 0.832031, 0.549316,13.046265, 9.162903, -11.390686,gal
2020-03-06,13:53:23.530,-0.149414, 0.836914, 0.540771,15.327454, 5.432129, -7.980347,gal
2020-03-06,13:53:23.558,-0.137695, 0.787109, 0.545410,15.090942, 7.415771, -11.619568,gal
2020-03-06,13:53:23.587,-0.133301, 0.799561, 0.535156,13.351440, 15.640259, -17.410278,gal
2020-03-06,13:53:23.614,-0.140869, 0.844971, 0.496094,29.205322, 12.626648, -23.872375,gal
2020-03-06,13:53:23.642,-0.179199, 0.834961, 0.503662,16.250610, 10.742188, -15.350342,gal
2020-03-06,13:53:23.670,-0.184570, 0.822998, 0.521240,10.101318, 13.916016, -17.578125,gal
2020-03-06,13:53:23.698,-0.218750, 0.877441, 0.503174,6.301880, 5.981445, -13.450623,gal
2020-03-06,13:53:23.726,-0.186523, 0.881348, 0.523682,0.663757, -3.768921, -3.578186,gal
2020-03-06,13:53:23.754,-0.208984, 0.842773, 0.529785,-4.653931, -8.758545, -1.518250,gal
2020-03-06,13:53:23.782,-0.217041, 0.842773, 0.516357,-8.125305, -14.892578, -5.867004,gal
2020-03-06,13:53:23.810,-0.181885, 0.871826, 0.507080,-13.145447, -19.470215, 4.539490,gal
2020-03-06,13:53:23.837,-0.214111, 0.854004, 0.520996,-17.913818, -24.887085, 9.704590,gal
2020-03-06,13:53:23.867,-0.183350, 0.823242, 0.539062,-27.450562, -22.933960, 12.420654,gal
2020-03-06,13:53:23.895,-0.135742, 0.820312, 0.541748,-36.483765, -17.318726, 15.220642,gal
2020-03-06,13:53:23.923,-0.143066, 0.810791, 0.537109,-27.244568, -20.835876, 10.803223,gal
2020-03-06,13:53:23.950,-0.126465, 0.823486, 0.577148,-26.199341, -21.911621, 10.704041,gal
2020-03-06,13:53:23.978,-0.146240, 0.770752, 0.585205,-26.908875, -25.054932, 7.217407,gal
2020-03-06,13:53:24.007,-0.063232, 0.820801, 0.583984,-26.214600, -21.400452, 11.474609,gal
2020-03-06,13:53:24.035,-0.124023, 0.778320, 0.588379,-27.183533, -21.362305, 13.572693,gal
2020-03-06,13:53:24.062,-0.057861, 0.704834, 0.612305,-33.386230, -5.958557, 18.356323,gal
2020-03-06,13:53:24.090,-0.100098, 0.767578, 0.613037,-35.575867, 0.213623, 20.362854,gal
2020-03-06,13:53:24.118,-0.083008, 0.808838, 0.631592,-43.518066, -1.419067, 42.175293,gal
2020-03-06,13:53:24.147,-0.139160, 0.684814, 0.676514,-69.122314, -8.590698, 55.473328,gal
2020-03-06,13:53:24.175,-0.010498, 0.668701, 0.680908,-83.541870, -1.808167, 46.058655,gal
2020-03-06,13:53:24.202,-0.004883, 0.671631, 0.712891,-73.669434, 22.247314, 29.792786,gal
2020-03-06,13:53:24.230,0.107178, 0.826416, 0.682373,-36.102295, 15.701294, 3.234863,gal
2020-03-06,13:53:24.258,-0.056396, 0.710205, 0.734375,-35.331726, -4.570007, 29.045105,gal
2020-03-06,13:53:24.286,-0.040771, 0.565186, 0.764648,-31.898499, -16.525269, 0.808716,gal
2020-03-06,13:53:24.315,0.006348, 0.592773, 0.765869,-28.274536, 1.876831, -13.488770,gal
2020-03-06,13:53:24.343,0.005371, 0.677490, 0.758057,-23.002625, -1.556396, 1.335144,gal
2020-03-06,13:53:24.370,0.017334, 0.597168, 0.774170,-21.751404, -3.013611, 0.633240,gal
2020-03-06,13:53:24.398,-0.060791, 0.591064, 0.777344,-27.267456, 3.219604, 14.572144,gal
2020-03-06,13:53:24.427,0.014404, 0.547852, 0.795898,-22.171021, 6.195068, -3.929138,gal
2020-03-06,13:53:24.456,-0.012451, 0.615723, 0.783203,-21.743774, 2.853394, -8.064270,gal
2020-03-06,13:53:24.484,-0.052734, 0.591309, 0.801025,-23.483276, -1.914978, 6.240845,gal
2020-03-06,13:53:24.511,-0.025635, 0.492188, 0.810547,-26.817322, -5.058289, -7.705688,gal
2020-03-06,13:53:24.539,0.042236, 0.582764, 0.798340,-27.687073, 5.905151, -6.889343,gal
2020-03-06,13:53:24.568,0.000000, 0.635498, 0.797363,-22.560120, 0.892639, -7.621765,gal
2020-03-06,13:53:24.595,0.015869, 0.504150, 0.832764,-22.346497, 0.076294, -10.566711,gal
2020-03-06,13:53:24.623,-0.088379, 0.490967, 0.839111,-30.158997, 1.266479, -8.995056,gal
2020-03-06,13:53:24.651,0.068848, 0.528320, 0.847900,-26.710510, 5.149841, -13.633728,gal
2020-03-06,13:53:24.679,0.002686, 0.539062, 0.854004,-25.466919, 1.548767, 5.081177,gal
2020-03-06,13:53:24.707,-0.059326, 0.437256, 0.855469,-27.999878, 1.258850, 15.502930,gal
2020-03-06,13:53:24.735,-0.037598, 0.462891, 0.850830,-30.029297, -1.983643, 2.105713,gal
2020-03-06,13:53:24.763,0.026367, 0.503418, 0.870361,-24.719238, 2.082825, -3.135681,gal
2020-03-06,13:53:24.791,-0.014648, 0.445557, 0.863037,-23.132324, -6.683350, 1.792908,gal
2020-03-06,13:53:24.819,-0.078369, 0.361084, 0.889648,-29.624939, -4.013062, -1.464844,gal
2020-03-06,13:53:24.847,0.017822, 0.428711, 0.892334,-32.363892, -13.282776, -10.147095,gal
2020-03-06,13:53:24.876,0.045166, 0.450928, 0.884033,-29.418945, -11.680603, -3.929138,gal
2020-03-06,13:53:24.906,0.026855, 0.311523, 0.935303,-33.027649, -8.964539, -0.061035,gal
2020-03-06,13:53:24.934,-0.128906, 0.433594, 0.978027,-51.361084, -33.462524, 10.810852,gal
2020-03-06,13:53:24.963,0.150879, 0.445068, 0.851074,-31.471252, -53.321838, -14.739990,gal
2020-03-06,13:53:24.992,0.150391, 0.400879, 0.882812,-28.121948, -27.877808, 3.479004,gal
2020-03-06,13:53:25.027,0.208740, 0.286865, 0.921143,-25.016785, 10.047913, 34.439087,gal
2020-03-06,13:53:25.059,-0.002930, 0.360840, 0.898193,-34.797668, 4.905701, 23.086548,gal
2020-03-06,13:53:25.088,0.136475, 0.378906, 0.885254,-25.787354, 8.369446, 18.821716,gal
2020-03-06,13:53:25.117,0.107422, 0.288574, 0.911133,-20.896912, 16.136169, 26.992798,gal
2020-03-06,13:53:25.147,0.015381, 0.245850, 0.948486,-19.966125, 19.493103, 12.580872,gal
2020-03-06,13:53:25.175,0.053955, 0.270508, 0.951904,-23.040771, 6.042480, 7.499695,gal
2020-03-06,13:53:25.203,0.110107, 0.271240, 0.951660,-29.174805, 13.137817, 28.862000,gal
2020-03-06,13:53:25.230,0.074951, 0.291992, 0.948730,-25.444031, 19.721985, 29.075623,gal
2020-03-06,13:53:25.259,0.017578, 0.281250, 0.960938,-25.367737, 3.067017, 16.677856,gal
2020-03-06,13:53:25.289,0.038574, 0.233887, 0.987305,-23.262024, -16.174316, 10.887146,gal
2020-03-06,13:53:25.317,0.123047, 0.147217, 0.983154,-27.053833, -2.487183, 8.811951,gal
2020-03-06,13:53:25.345,0.071777, 0.212158, 0.958252,-22.987366, 2.754211, 12.252808,gal
2020-03-06,13:53:25.372,0.058838, 0.244141, 0.970947,-16.891479, -11.215210, 11.550903,gal
2020-03-06,13:53:25.401,0.043945, 0.136963, 0.944824,-18.432617, -21.514893, -11.962891,gal
2020-03-06,13:53:25.430,0.106445, 0.089111, 0.976562,-15.525818, -17.669678, -27.786255,gal
2020-03-06,13:53:25.458,0.141113, 0.192627, 0.928223,-7.743835, 3.791809, -45.745850,gal
2020-03-06,13:53:25.486,0.093262, 0.294189, 0.950195,-2.708435, -6.813049, -25.970459,gal
2020-03-06,13:53:25.513,0.045166, 0.217041, 0.968506,-12.443542, -24.063110, 9.422302,gal
2020-03-06,13:53:25.542,0.105469, 0.101807, 0.949463,-12.535095, -17.524719, -2.616882,gal
2020-03-06,13:53:25.570,0.117676, 0.131592, 0.951904,-14.060974, -2.723694, -10.536194,gal
2020-03-06,13:53:25.597,0.132812, 0.208252, 0.952881,-15.365601, -5.172729, 7.957458,gal
2020-03-06,13:53:25.625,0.126709, 0.176270, 0.964111,-17.326355, -7.331848, 10.391235,gal
2020-03-06,13:53:25.652,0.158447, 0.161133, 0.949951,-34.034729, -0.526428, 24.116516,gal
2020-03-06,13:53:25.681,0.136475, 0.125244, 0.947754,-35.476685, 3.852844, 20.629883,gal
2020-03-06,13:53:25.710,0.131592, 0.128418, 0.950928,-33.424377, 2.944946, 18.173218,gal
2020-03-06,13:53:25.738,0.074463, 0.070557, 0.938721,-33.935547, 0.976562, 5.851746,gal
2020-03-06,13:53:25.766,0.150635, 0.083008, 0.916260,-49.583435, 2.548218, -8.895874,gal
2020-03-06,13:53:25.793,0.173584, 0.064941, 0.979248,-54.512024, 7.850647, 8.293152,gal
2020-03-06,13:53:25.821,0.144043, 0.065430, 0.966309,-59.951782, 6.065369, 22.140503,gal
2020-03-06,13:53:25.849,0.123291, -0.004395, 0.945312,-54.992676, 4.295349, 24.192810,gal
2020-03-06,13:53:25.877,0.115479, -0.055176, 0.951172,-52.299500, 1.289368, 25.711060,gal
2020-03-06,13:53:25.905,0.146484, -0.045410, 0.966309,-33.981323, 4.837036, 19.569397,gal
2020-03-06,13:53:25.932,0.147705, -0.018066, 0.940918,-35.560608, 5.500793, 15.632629,gal
2020-03-06,13:53:25.960,0.086182, -0.079590, 0.969482,-31.845093, 9.361267, 33.302307,gal
2020-03-06,13:53:25.990,0.017334, -0.138428, 0.967773,-33.073425, -12.016296, 26.931763,gal
2020-03-06,13:53:26.018,0.135742, -0.152100, 0.946533,-32.051086, -19.729614, 0.099182,gal
2020-03-06,13:53:26.046,0.148682, -0.122070, 0.942139,-24.063110, -7.484436, -2.075195,gal
2020-03-06,13:53:26.073,0.153320, -0.134277, 0.953857,-21.835327, -4.348755, 9.963989,gal
2020-03-06,13:53:26.101,0.093994, -0.185059, 0.945312,-22.384644, -10.475159, -5.882263,gal
2020-03-06,13:53:26.129,0.166748, -0.156250, 0.956787,-20.195007, -7.049561, -6.683350,gal
2020-03-06,13:53:26.157,0.198242, -0.146973, 0.952148,-31.990051, -2.265930, 23.315430,gal
2020-03-06,13:53:26.184,0.195068, -0.171387, 0.964844,-24.253845, -7.766724, 15.090942,gal
2020-03-06,13:53:26.212,0.087402, -0.263184, 0.898926,-18.363953, 1.510620, -0.877380,gal
2020-03-06,13:53:26.241,0.177979, -0.212158, 0.915771,-16.258240, 8.346558, -9.788513,gal
2020-03-06,13:53:26.272,0.111572, -0.186035, 0.900391,-25.512695, 28.312683, 15.357971,gal
2020-03-06,13:53:26.300,0.127197, -0.207275, 0.924561,-14.556885, 22.438049, 21.095276,gal
2020-03-06,13:53:26.328,0.013916, -0.238281, 0.960449,-18.127441, 13.427734, 11.344910,gal
2020-03-06,13:53:26.356,0.136963, -0.203125, 0.931396,-31.105042, 15.228271, 22.605896,gal
2020-03-06,13:53:26.384,0.145996, -0.213867, 0.937256,-25.588989, 24.078369, 27.816772,gal
2020-03-06,13:53:26.413,0.080322, -0.233398, 0.941406,-26.214600, 13.427734, 39.329529,gal
2020-03-06,13:53:26.441,0.079590, -0.268555, 0.912842,-32.058716, 5.485535, 56.022644,gal
2020-03-06,13:53:26.469,0.035889, -0.321777, 0.931396,-31.982422, 6.652832, 58.090210,gal
2020-03-06,13:53:26.496,0.080078, -0.357910, 0.920166,-33.309937, -3.509521, 37.292480,gal
2020-03-06,13:53:26.526,0.057373, -0.359131, 0.881836,-25.886536, 14.091492, 32.440186,gal
2020-03-06,13:53:26.554,0.020020, -0.368652, 0.932617,-21.286011, 8.346558, 22.773743,gal
2020-03-06,13:53:26.581,0.045898, -0.400879, 0.909424,-22.239685, 1.991272, -13.359070,gal
2020-03-06,13:53:26.609,0.077637, -0.372070, 0.934814,-31.608582, 8.522034, 3.105164,gal
2020-03-06,13:53:26.637,0.028564, -0.325195, 0.892334,-40.504456, 7.324219, 14.892578,gal
2020-03-06,13:53:26.667,0.012451, -0.422607, 0.850830,-27.114868, -1.411438, 10.185242,gal
2020-03-06,13:53:26.696,0.046875, -0.396729, 0.890137,-39.634705, 2.883911, 8.735657,gal
2020-03-06,13:53:26.724,0.047852, -0.383057, 0.863281,-41.954041, 4.699707, 4.768372,gal
2020-03-06,13:53:26.751,0.015625, -0.433838, 0.842041,-40.008545, 11.535645, -2.830505,gal
2020-03-06,13:53:26.779,-0.001465, -0.422852, 0.881836,-39.649963, -0.205994, -0.045776,gal
2020-03-06,13:53:26.808,0.055664, -0.433350, 0.842529,-46.920776, -1.922607, -1.197815,gal
2020-03-06,13:53:26.835,0.137695, -0.477295, 0.814941,-55.183411, 4.249573, 18.379211,gal
2020-03-06,13:53:26.863,-0.011475, -0.517334, 0.823975,-45.242310, 2.243042, 12.954712,gal
2020-03-06,13:53:26.891,-0.025391, -0.510254, 0.814209,-41.336060, -4.989624, 17.929077,gal
2020-03-06,13:53:26.918,0.064453, -0.592285, 0.794434,-56.221008, -0.686646, -3.128052,gal
2020-03-06,13:53:26.947,0.024414, -0.595215, 0.713623,-33.447266, 10.421753, 20.606995,gal
2020-03-06,13:53:26.975,0.002686, -0.584961, 0.777588,-23.719788, 17.280579, 1.571655,gal
2020-03-06,13:53:27.002,-0.021973, -0.637451, 0.790283,-26.786804, 6.248474, 9.719849,gal
2020-03-06,13:53:27.030,-0.014648, -0.642090, 0.756836,-30.815125, 16.540527, -10.604858,gal
2020-03-06,13:53:27.057,0.023926, -0.572266, 0.787598,-30.906677, 16.044617, -23.338318,gal
2020-03-06,13:53:27.086,-0.003418, -0.582031, 0.711426,-23.429871, 9.033203, 15.121460,gal
2020-03-06,13:53:27.114,-0.045410, -0.645752, 0.717041,-23.223877, 10.398865, 14.152527,gal
2020-03-06,13:53:27.142,-0.009277, -0.641602, 0.728271,-27.183533, 17.120361, -1.296997,gal
2020-03-06,13:53:27.169,0.008545, -0.619629, 0.718750,-34.729004, 19.706726, 13.458252,gal
2020-03-06,13:53:27.197,0.000732, -0.634033, 0.707031,-28.625488, 15.228271, 16.281128,gal
2020-03-06,13:53:27.226,-0.107178, -0.689209, 0.667480,-25.772095, -8.255005, 18.257141,gal
2020-03-06,13:53:27.254,-0.057617, -0.665771, 0.745361,-35.919189, -22.682190, 22.361755,gal
2020-03-06,13:53:27.282,-0.014404, -0.676514, 0.681641,-35.438538, -15.068054, 7.125854,gal
2020-03-06,13:53:27.310,-0.065186, -0.720215, 0.625488,-28.007507, -5.783081, 16.525269,gal
2020-03-06,13:53:27.337,-0.180908, -0.715088, 0.659180,-25.978088, -23.284912, 17.875671,gal
2020-03-06,13:53:27.366,0.021729, -0.781494, 0.652832,-18.661499, -18.508911, -10.299683,gal
2020-03-06,13:53:27.394,0.037598, -0.694580, 0.673340,-6.805420, -8.430481, -15.998840,gal
2020-03-06,13:53:27.422,0.033447, -0.662842, 0.672607,-23.155212, -14.404297, -4.966736,gal
2020-03-06,13:53:27.449,0.027832, -0.747314, 0.523193,-14.266968, -6.744385, -6.065369,gal
2020-03-06,13:53:27.477,0.020508, -0.737793, 0.610596,2.105713, 13.999939, -12.763977,gal
2020-03-06,13:53:27.505,0.018799, -0.717285, 0.625977,12.748718, 23.475647, -14.320374,gal
2020-03-06,13:53:27.533,-0.086426, -0.702637, 0.646729,7.354736, 14.251709, 1.129150,gal
2020-03-06,13:53:27.561,-0.057617, -0.708252, 0.679932,-1.159668, -4.249573, 2.616882,gal
2020-03-06,13:53:27.588,0.056152, -0.735107, 0.617432,9.361267, 17.425537, 8.171082,gal
2020-03-06,13:53:27.616,0.019531, -0.696045, 0.727051,14.892578, 28.770447, 17.425537,gal
2020-03-06,13:53:27.644,-0.095947, -0.689697, 0.672607,8.491516, 12.184143, 19.378662,gal
2020-03-06,13:53:27.672,-0.129639, -0.765137, 0.625000,0.465393, -7.110596, 1.892090,gal
2020-03-06,13:53:27.699,-0.002686, -0.716064, 0.688965,5.989075, -2.876282, -1.113892,gal
2020-03-06,13:53:27.727,0.006836, -0.733154, 0.690674,23.323059, -1.991272, 3.219604,gal
2020-03-06,13:53:27.755,-0.087402, -0.674805, 0.727539,14.991760, -15.808105, 7.507324,gal
2020-03-06,13:53:27.783,-0.014648, -0.707520, 0.667236,8.117676, -29.067993, -2.769470,gal
2020-03-06,13:53:27.811,-0.082275, -0.701172, 0.671387,8.468628, -37.673950, -7.980347,gal
2020-03-06,13:53:27.838,0.021240, -0.723389, 0.629883,24.520874, -13.862610, -38.436890,gal
2020-03-06,13:53:27.866,-0.004150, -0.664062, 0.676514,40.504456, -10.604858, -18.112183,gal
2020-03-06,13:53:27.894,0.039795, -0.620605, 0.740234,39.772034, -25.367737, -6.530762,gal
2020-03-06,13:53:27.923,0.032471, -0.633057, 0.692871,32.463074, -12.481689, -19.142151,gal
2020-03-06,13:53:27.951,0.122070, -0.626953, 0.631592,43.418884, 14.335632, -11.840820,gal
2020-03-06,13:53:27.979,0.003174, -0.605225, 0.722900,53.237915, 30.288696, -3.036499,gal
2020-03-06,13:53:28.007,0.016357, -0.535645, 0.796875,56.945801, 32.577515, -30.334473,gal
2020-03-06,13:53:28.035,0.073730, -0.518799, 0.828369,51.780701, 22.087097, -51.719666,gal
2020-03-06,13:53:28.064,0.038574, -0.521484, 0.842529,49.392700, 13.732910, -22.148132,gal
2020-03-06,13:53:28.093,0.016113, -0.483398, 0.856689,30.776978, 11.886597, 2.868652,gal
2020-03-06,13:53:28.121,0.058105, -0.554443, 0.826660,29.678345, 6.195068, -2.243042,gal
2020-03-06,13:53:28.148,-0.013672, -0.469971, 0.849121,30.204773, 6.439209, -14.022827,gal
2020-03-06,13:53:28.176,-0.007812, -0.488281, 0.848389,23.757935, -8.949280, 12.634277,gal
2020-03-06,13:53:28.204,0.015625, -0.480469, 0.859375,21.545410, -18.241882, -4.898071,gal
2020-03-06,13:53:28.232,0.067139, -0.485840, 0.808838,30.975342, -21.697998, -22.354126,gal
2020-03-06,13:53:28.259,0.063477, -0.489502, 0.832764,35.194397, 3.372192, -29.731750,gal
2020-03-06,13:53:28.287,0.102539, -0.364502, 0.869141,31.066895, 1.296997, -13.793945,gal
2020-03-06,13:53:28.315,0.063965, -0.360352, 0.876953,27.786255, -2.609253, -7.682800,gal
2020-03-06,13:53:28.343,0.075684, -0.424072, 0.837402,31.204224, -4.501343, -23.750305,gal
2020-03-06,13:53:28.371,0.072998, -0.369629, 0.839600,46.745300, 10.551453, -49.743652,gal
2020-03-06,13:53:28.399,0.087646, -0.310547, 0.904785,50.666809, 7.011414, -44.151306,gal
2020-03-06,13:53:28.426,0.040527, -0.310303, 0.927002,31.890869, 7.011414, -26.062012,gal
2020-03-06,13:53:28.454,0.023193, -0.290527, 0.946045,21.255493, 2.304077, -12.794495,gal
2020-03-06,13:53:28.482,0.126709, -0.263672, 0.945312,16.014099, -11.062622, -3.913879,gal
2020-03-06,13:53:28.511,0.054199, -0.346680, 0.945557,7.522583, -30.616760, -18.814087,gal
2020-03-06,13:53:28.539,0.164551, -0.348633, 0.873291,29.548645, -24.490356, -40.603638,gal
2020-03-06,13:53:28.566,0.198242, -0.284668, 0.914062,25.039673, -6.340027, -23.101807,gal
2020-03-06,13:53:28.594,0.140869, -0.281738, 0.930176,23.666382, 4.280090, -17.677307,gal
2020-03-06,13:53:28.623,0.128662, -0.238525, 0.937988,22.758484, -2.243042, -11.703491,gal
2020-03-06,13:53:28.651,0.182861, -0.312256, 0.880615,32.562256, 5.119324, -19.317627,gal
2020-03-06,13:53:28.679,0.086914, -0.225098, 0.903564,41.839600, 8.712769, -31.600952,gal
2020-03-06,13:53:28.707,0.109619, -0.227051, 0.879883,33.866882, 12.725830, -3.860474,gal
2020-03-06,13:53:28.734,0.146240, -0.195557, 0.970947,31.044006, 3.440857, -17.379761,gal
2020-03-06,13:53:28.763,0.217773, -0.122070, 0.953857,25.138855, 14.511108, -14.068604,gal
2020-03-06,13:53:28.791,0.145752, -0.113525, 0.975830,30.815125, 22.026062, -10.696411,gal
2020-03-06,13:53:28.818,0.135742, -0.071045, 0.958252,32.783508, 15.487671, 18.562317,gal
2020-03-06,13:53:28.847,0.133545, -0.098389, 0.936523,29.212952, 19.393921, 8.346558,gal
2020-03-06,13:53:28.874,0.098877, -0.128418, 0.951172,28.976440, 19.805908, -0.167847,gal
2020-03-06,13:53:28.903,0.048340, -0.082031, 0.977783,28.747559, 13.961792, 2.861023,gal
2020-03-06,13:53:28.931,0.107178, -0.157471, 0.946289,34.904480, 13.275146, -25.093079,gal
2020-03-06,13:53:28.958,0.075684, -0.033691, 0.929932,44.364929, 34.027100, -7.957458,gal
2020-03-06,13:53:28.986,0.087402, 0.059082, 0.986328,35.812378, 31.883240, -15.441895,gal
2020-03-06,13:53:29.014,0.035645, 0.031982, 0.984863,24.383545, 24.314880, -2.326965,gal
2020-03-06,13:53:29.042,-0.002441, -0.002197, 0.988281,9.796143, 11.512756, -7.835388,gal
2020-03-06,13:53:29.070,0.035889, 0.071777, 0.983643,2.906799, -10.078430, 17.562866,gal
2020-03-06,13:53:29.097,0.035400, 0.068115, 0.983154,-3.746033, -15.747070, 27.450562,gal
2020-03-06,13:53:29.125,0.069580, -0.041260, 0.937744,-4.615784, -13.298035, 17.295837,gal
2020-03-06,13:53:29.152,0.084473, 0.004150, 0.928223,-0.175476, 1.640320, -0.228882,gal
2020-03-06,13:53:29.182,0.083984, 0.050537, 0.959473,1.129150, 3.265381, -1.976013,gal
2020-03-06,13:53:29.209,0.082520, 0.025879, 0.958252,1.434326, 3.913879, -4.737854,gal
2020-03-06,13:53:29.237,0.048340, -0.010254, 0.947510,4.699707, 4.806519, -5.897522,gal
2020-03-06,13:53:29.265,0.096436, 0.034424, 0.964600,3.623962, 9.681702, -10.620117,gal
2020-03-06,13:53:29.292,0.054932, 0.041016, 0.971436,-0.427246, 11.604309, -1.502991,gal
2020-03-06,13:53:29.321,0.043945, 0.004395, 0.992676,-1.098633, 13.793945, 5.004883,gal
2020-03-06,13:53:29.349,0.031738, -0.070312, 0.970947,-0.503540, -0.518799, -4.562378,gal
2020-03-06,13:53:29.377,0.059814, 0.051025, 0.998779,2.510071, 1.487732, -17.074585,gal
2020-03-06,13:53:29.404,0.044922, 0.051025, 0.986816,-4.013062, -4.165649, 3.547668,gal
2020-03-06,13:53:29.432,0.023438, 0.009033, 0.967041,-7.072449, -16.418457, 1.953125,gal
2020-03-06,13:53:29.461,0.084473, 0.007812, 0.915527,0.778198, -19.027710, -8.735657,gal
2020-03-06,13:53:29.489,-0.007568, 0.191895, 0.813965,-2.670288, 11.474609, 23.284912,gal
2020-03-06,13:53:29.516,0.152588, 0.041260, 0.760010,9.078979, 49.949646, 34.049988,gal
2020-03-06,13:53:29.544,0.058594, -0.105225, 0.889160,18.783569, 87.448120, 15.098572,gal
2020-03-06,13:53:29.572,0.064209, -0.030029, 0.986572,31.074524, 132.873535, 2.235413,gal
2020-03-06,13:53:29.600,-0.167480, 0.182861, 1.211182,22.987366, 77.735901, -8.323669,gal
2020-03-06,13:53:29.628,-0.284668, 0.269531, 1.259521,-12.870789, -29.014587, 14.244080,gal
2020-03-06,13:53:29.655,-0.183594, 0.085693, 1.014648,-53.710938, -80.047607, 23.117065,gal
2020-03-06,13:53:29.683,0.046387, -0.028564, 0.875977,-43.792725, -86.883545, 34.606934,gal
2020-03-06,13:53:29.710,0.107178, -0.196533, 0.687988,-15.632629, -10.894775, 20.011902,gal
2020-03-06,13:53:29.739,0.105713, -0.115967, 0.906006,18.562317, 54.229736, -18.165588,gal
2020-03-06,13:53:29.769,-0.114014, 0.066162, 1.090576,21.934509, 41.168213, -18.890381,gal
2020-03-06,13:53:29.797,-0.168701, 0.093994, 1.226074,-17.456055, -44.677734, 11.116028,gal
2020-03-06,13:53:29.824,-0.017090, 0.121338, 1.135986,-31.158447, -131.065369, -25.642395,gal
2020-03-06,13:53:29.852,0.260498, -0.011719, 0.710938,-27.748108, -132.881165, -4.814148,gal
2020-03-06,13:53:29.880,0.183838, -0.171387, 0.626465,-0.747681, -49.217224, -13.053894,gal
2020-03-06,13:53:29.910,0.157715, -0.072021, 0.688721,26.054382, 36.201477, 10.131836,gal
2020-03-06,13:53:29.938,0.145020, -0.072754, 0.837646,32.516479, 88.356018, -1.785278,gal
2020-03-06,13:53:29.966,0.024902, 0.075439, 1.176025,32.104492, 67.710876, -17.425537,gal
2020-03-06,13:53:29.993,0.008057, 0.212646, 1.276611,15.792847, -2.891541, -14.533997,gal
2020-03-06,13:53:30.022,-0.073975, 0.283936, 1.037842,-19.058228, -63.835144, 34.637451,gal
2020-03-06,13:53:30.051,0.204102, -0.024414, 0.774170,-14.892578, -73.524475, -3.250122,gal
2020-03-06,13:53:30.078,0.353271, -0.103027, 0.691406,18.959045, 29.098511, -22.224426,gal
2020-03-06,13:53:30.106,0.139160, 0.050049, 1.001221,27.244568, 108.375549, 15.205383,gal
2020-03-06,13:53:30.134,-0.034424, 0.111572, 1.118652,16.311646, 70.877075, 6.240845,gal
2020-03-06,13:53:30.164,-0.155273, 0.229980, 1.236084,-21.301270, -17.127991, 25.199890,gal
2020-03-06,13:53:30.192,0.050049, 0.095947, 0.958008,-39.649963, -112.236023, 21.614075,gal
2020-03-06,13:53:30.220,0.217773, -0.075439, 0.714844,-19.721985, -66.642761, 15.602112,gal
2020-03-06,13:53:30.247,0.339111, -0.162354, 0.662109,20.141602, 47.042847, -24.948120,gal
2020-03-06,13:53:30.275,0.080078, 0.049561, 0.955566,36.392212, 133.911133, 5.104065,gal
2020-03-06,13:53:30.304,-0.051025, 0.120605, 1.311523,26.962280, 81.283569, 3.761292,gal
2020-03-06,13:53:30.333,-0.198242, 0.271973, 1.251953,-20.797729, -21.102905, 31.074524,gal
2020-03-06,13:53:30.361,0.071533, 0.118896, 0.990967,-35.888672, -101.860046, 17.181396,gal
2020-03-06,13:53:30.389,0.151123, -0.016846, 0.852295,-17.051697, -76.416016, -1.449585,gal
2020-03-06,13:53:30.416,0.312500, -0.192871, 0.698975,18.440247, 46.913147, -20.271301,gal
2020-03-06,13:53:30.445,0.082275, 0.027832, 1.023438,33.172607, 98.052979, -3.593445,gal
2020-03-06,13:53:30.473,-0.135742, 0.134277, 1.240479,17.730713, 47.294617, -5.119324,gal
2020-03-06,13:53:30.500,-0.162354, 0.249023, 1.221191,-17.189026, -65.887451, 16.311646,gal
2020-03-06,13:53:30.528,0.193604, 0.008057, 0.744385,-34.812927, -98.037720, 21.575928,gal
2020-03-06,13:53:30.556,0.275879, -0.185547, 0.541260,14.297485, 45.036316, 21.827698,gal
2020-03-06,13:53:30.585,0.081055, -0.105469, 0.798096,49.476624, 143.386841, -14.007568,gal
2020-03-06,13:53:30.613,-0.140137, 0.111084, 1.257324,28.381348, 100.593567, -30.204773,gal
2020-03-06,13:53:30.641,-0.226074, 0.495850, 1.406250,9.346008, -25.131226, -14.739990,gal
2020-03-06,13:53:30.668,-0.122070, 0.396484, 1.122070,-45.959473, -155.540466, 49.690247,gal
2020-03-06,13:53:30.696,0.310303, -0.158203, 0.578369,-6.126404, -113.571167, 4.890442,gal
2020-03-06,13:53:30.725,0.233643, -0.214600, 0.677490,9.338379, 40.969849, 6.362915,gal
2020-03-06,13:53:30.753,-0.037109, 0.060059, 1.039551,28.015137, 52.330017, -19.828796,gal
2020-03-06,13:53:30.781,-0.093750, 0.222900, 1.327881,-6.179810, -27.404785, -14.739990,gal
2020-03-06,13:53:30.809,0.032227, 0.216064, 0.850098,-43.708801, -134.361267, 2.548218,gal
2020-03-06,13:53:30.836,0.400635, -0.112793, 0.512451,1.953125, 5.462646, 18.997192,gal
2020-03-06,13:53:30.866,0.160156, 0.031738, 0.748291,46.623230, 153.175354, -19.645691,gal
2020-03-06,13:53:30.894,-0.095459, 0.140137, 1.116455,35.362244, 134.010315, -20.256042,gal
2020-03-06,13:53:30.922,-0.281982, 0.287109, 1.298340,6.057739, 31.524658, -15.541077,gal
2020-03-06,13:53:30.950,-0.228027, 0.370850, 1.333740,-43.495178, -134.582520, 34.767151,gal
2020-03-06,13:53:30.977,0.172852, 0.088135, 0.832031,-54.557800, -187.446594, -3.417969,gal
2020-03-06,13:53:31.005,0.342773, -0.126221, 0.635498,-12.260437, -35.224915, 3.860474,gal
2020-03-06,13:53:31.033,0.304688, -0.009033, 0.636475,12.367249, 77.079773, -7.171631,gal
2020-03-06,13:53:31.061,0.063965, 0.113281, 1.085449,26.496887, 121.818542, -7.324219,gal
2020-03-06,13:53:31.089,-0.091064, 0.212891, 1.295410,4.447937, 32.943726, -10.551453,gal
2020-03-06,13:53:31.116,-0.100586, 0.295898, 1.458740,-35.720825, -100.067139, 10.810852,gal
2020-03-06,13:53:31.144,0.079834, 0.031006, 0.812256,-50.033569, -159.500122, -16.029358,gal
2020-03-06,13:53:31.172,0.458008, -0.120605, 0.494141,-21.202087, -62.248230, 15.266418,gal
2020-03-06,13:53:31.200,0.298340, -0.214844, 0.668457,3.044128, 73.997498, -7.156372,gal
2020-03-06,13:53:31.227,0.126465, 0.071289, 0.947754,14.060974, 127.067566, 24.078369,gal
2020-03-06,13:53:31.255,0.102783, 0.083984, 1.047363,9.841919, 102.523804, -13.534546,gal
2020-03-06,13:53:31.285,-0.152832, 0.190186, 1.195557,-17.028809, 4.173279, 21.926880,gal
2020-03-06,13:53:31.313,0.013672, -0.024170, 1.085693,-23.956299, -48.339844, 7.583618,gal
2020-03-06,13:53:31.341,0.052246, -0.044189, 0.917236,-24.986267, -60.081482, 9.811401,gal
2020-03-06,13:53:31.369,0.216797, -0.020020, 0.660400,-20.835876, -31.074524, -24.261475,gal
2020-03-06,13:53:31.396,0.204346, 0.006836, 0.870117,-2.952576, 0.404358, -13.481140,gal
2020-03-06,13:53:31.426,0.146973, -0.028076, 0.906494,-2.098083, 30.662537, 2.655029,gal
2020-03-06,13:53:31.453,0.155762, 0.004639, 0.969238,-1.518250, 45.280457, -11.909485,gal
2020-03-06,13:53:31.481,0.054199, 0.075684, 1.035889,-10.040283, 28.259277, 2.609253,gal
2020-03-06,13:53:31.509,0.047119, 0.027344, 0.975830,-6.599426, 0.076294, 0.137329,gal
2020-03-06,13:53:31.537,0.107422, -0.052490, 0.941406,-9.490967, -1.945496, -1.159668,gal
2020-03-06,13:53:31.565,0.086426, -0.029053, 0.974121,-6.729126, 16.654968, -7.064819,gal
2020-03-06,13:53:31.593,0.019043, 0.025146, 1.017334,-6.469727, -1.449585, 7.499695,gal
2020-03-06,13:53:31.621,0.024414, -0.089600, 0.963135,-12.466431, -17.646790, 14.488220,gal
2020-03-06,13:53:31.649,0.101562, -0.077881, 0.988525,-7.583618, -17.089844, -4.981995,gal
2020-03-06,13:53:31.676,0.090576, -0.017578, 0.995605,-10.589600, -10.620117, 6.752014,gal
2020-03-06,13:53:31.705,0.094238, -0.035156, 0.981445,-9.582520, -20.271301, 2.433777,gal
2020-03-06,13:53:31.733,0.062012, -0.092529, 0.980225,-7.759094, -12.176514, -9.384155,gal
2020-03-06,13:53:31.761,0.048096, -0.052246, 0.953857,-6.996155, -29.258728, -10.917664,gal
2020-03-06,13:53:31.788,0.174561, -0.016113, 0.943848,-4.325867, -10.597229, -8.087158,gal
2020-03-06,13:53:31.816,0.132080, -0.029053, 0.945312,-0.480652, 0.556946, 1.289368,gal
2020-03-06,13:53:31.846,0.120605, -0.050293, 0.941162,2.868652, 9.414673, -5.577087,gal
2020-03-06,13:53:31.874,0.128662, -0.009277, 0.957031,0.068665, 8.193970, -2.128601,gal
2020-03-06,13:53:31.902,0.134766, -0.018066, 0.961914,0.770569, 12.016296, 4.089355,gal
2020-03-06,13:53:31.930,0.086182, -0.034424, 0.954102,-1.380920, 4.928589, 7.858276,gal
2020-03-06,13:53:31.957,0.120850, -0.032471, 0.992920,-0.892639, -1.777649, -0.068665,gal
2020-03-06,13:53:31.986,0.131836, 0.014160, 0.990479,-1.678467, 2.403259, -4.508972,gal
2020-03-06,13:53:32.014,0.112793, -0.021484, 1.004639,-2.677917, -9.269714, 3.631592,gal
2020-03-06,13:53:32.042,0.095215, -0.071045, 0.947021,-4.669189, -4.478455, 4.180908,gal
2020-03-06,13:53:32.070,0.137695, -0.061279, 0.976074,-3.189087, -3.082275, -2.365112,gal
2020-03-06,13:53:32.097,0.144287, -0.037354, 0.969482,-1.815796, -3.738403, -4.829407,gal
2020-03-06,13:53:32.126,0.133301, -0.038330, 0.982910,-4.989624, -2.006531, 1.502991,gal
2020-03-06,13:53:32.154,0.089844, -0.058105, 1.091064,0.442505, -13.839722, -4.646301,gal
2020-03-06,13:53:32.182,0.208252, -0.050049, 0.911621,1.243591, 1.472473, -13.626099,gal
2020-03-06,13:53:32.210,0.098145, -0.011230, 0.965820,2.983093, 10.368347, 3.936768,gal
2020-03-06,13:53:32.238,0.115234, -0.056396, 0.953857,-0.335693, 4.875183, -6.553650,gal
2020-03-06,13:53:32.266,0.130127, -0.030273, 0.958740,3.509521, 1.472473, -1.365662,gal
2020-03-06,13:53:32.294,0.115234, -0.051758, 0.966064,-0.305176, 6.851196, -6.233215,gal
2020-03-06,13:53:32.321,0.127930, -0.067139, 1.003418,0.289917, -6.172180, 1.983643,gal
2020-03-06,13:53:32.349,0.176514, -0.043945, 0.933594,-1.495361, -7.148743, 1.258850,gal
2020-03-06,13:53:32.377,0.146240, -0.027100, 0.932373,4.753113, -5.035400, -5.149841,gal
2020-03-06,13:53:32.406,0.142822, -0.010010, 0.953857,3.158569, 11.749268, -1.747131,gal
2020-03-06,13:53:32.440,0.155273, -0.016113, 0.979736,4.058838, 8.705139, -7.438660,gal
2020-03-06,13:53:32.468,0.110107, -0.032471, 0.963623,-0.602722, 15.457153, -7.530212,gal
2020-03-06,13:53:32.496,0.115479, -0.006104, 0.962158,-1.411438, 2.639771, -7.781982,gal
2020-03-06,13:53:32.525,0.106934, -0.046143, 1.001709,0.129700, -6.538391, -3.143311,gal
2020-03-06,13:53:32.554,0.169678, 0.029541, 0.967529,-3.120422, -10.429382, -7.682800,gal
2020-03-06,13:53:32.582,0.142334, -0.002441, 0.949951,-3.440857, -1.701355, 0.701904,gal
2020-03-06,13:53:32.612,0.159912, 0.008789, 0.964600,-4.562378, -2.319336, 0.396729,gal
2020-03-06,13:53:32.645,0.114746, -0.031738, 0.972656,-5.210876, -8.239746, -1.747131,gal
2020-03-06,13:53:32.680,0.158691, 0.014648, 0.977295,-6.576538, -9.559631, -1.739502,gal
2020-03-06,13:53:32.710,0.198730, -0.003418, 0.957275,-11.528015, -4.447937, -5.500793,gal
2020-03-06,13:53:32.739,0.141357, -0.041504, 0.919434,-13.420105, -15.029907, -2.571106,gal
2020-03-06,13:53:32.767,0.183105, -0.052734, 0.939697,-9.521484, -1.068115, -3.601074,gal
2020-03-06,13:53:32.794,0.197510, -0.035400, 0.922363,-6.927490, 4.890442, -3.623962,gal
2020-03-06,13:53:32.823,0.163818, -0.029297, 0.959473,-5.401611, 7.270813, 0.755310,gal
2020-03-06,13:53:32.852,0.164551, -0.067871, 0.974854,-6.553650, 1.091003, -1.655579,gal
2020-03-06,13:53:32.881,0.125000, -0.037109, 0.966797,-7.987976, -8.239746, -2.243042,gal
2020-03-06,13:53:32.909,0.203857, -0.044189, 0.928711,-6.484985, -3.776550, -3.746033,gal
2020-03-06,13:53:32.937,0.199951, -0.015625, 0.559082,-38.070679, 21.957397, -16.601562,gal
2020-03-06,13:53:32.965,0.115967, -0.056396, 0.933838,-7.675171, -4.936218, -1.953125,gal
2020-03-06,13:53:32.993,0.161865, -0.057129, 0.945068,-3.868103, 2.273560, 0.785828,gal
2020-03-06,13:53:33.022,0.218994, -0.086182, 0.917236,-0.068665, 15.937805, -12.550354,gal
2020-03-06,13:53:33.049,0.132080, -0.034912, 0.970215,-1.251221, 8.987427, 0.350952,gal
2020-03-06,13:53:33.077,0.172607, -0.056641, 0.988281,-1.052856, 5.111694, 3.639221,gal
2020-03-06,13:53:33.105,0.168457, -0.055176, 0.970947,-0.640869, -1.762390, -0.839233,gal
2020-03-06,13:53:33.134,0.148193, -0.066406, 0.954346,-0.953674, 0.877380, -3.807068,gal
2020-03-06,13:53:33.163,0.175781, -0.051514, 0.953369,0.343323, -4.074097, -5.645752,gal
2020-03-06,13:53:33.192,0.169678, -0.040283, 0.953125,0.129700, -0.328064, -1.602173,gal
2020-03-06,13:53:33.220,0.166504, -0.043457, 0.952393,0.732422, 4.196167, -1.907349,gal
2020-03-06,13:53:33.247,0.154785, -0.040283, 0.950195,1.724243, 2.838135, 0.869751,gal
2020-03-06,13:53:33.275,0.195801, -0.029541, 0.944824,0.885010, 10.482788, -3.868103,gal
